File: GMTE-44_Uncomp_IP_Cell 9_25deg_C01.mpt
EC-Lab ASCII FILE
Nb header lines : 63

Potentio Electrochemical Impedance Spectroscopy

Run on channel : 1 (SN 51265)
User :
CE vs. WE compliance from -10 V to 10 V
Electrode connection : standard
Potential control : Ewe
Ewe ctrl range : min = -10.00 V, max = 10.00 V
Safety Limits :
	Do not start on E overload
Acquisition started on : 01/10/2024 22:43:12.135
Loaded Setting File :  D:\Manju\2024_01_05\GMTE-38_IP_Uncomp_1.5_SD_1_GF_AG_PVDF_94_6_500mM_TBATFSI_EC_EMC_3_7_5608us_10mV_200kHz_1mHz_Cell 1_25deg_C01.mpr
Saved on :
	File : GMTE-44_IP_Uncomp_1.5_SD_1_GF_AG_PVDF_94_6_500mM_TBAPF6_EC_EMC_3_7_5167us_10mV_200kHz_0.1mHz_Cell 9_25deg_C01.mpr
	Directory : D:\Manju\2024_01_08\
	Host : 192.168.0.10
Device : VSP-3e (SN .003361)
Address : 192.168.0.1
EC-Lab for windows v11.52 (software)
Internet server v11.52 (firmware)
Command interpretor v11.50 (firmware)
Electrode material :
Initial state :
Electrolyte :
Comments :
Electrode surface area : 0.001 cm²
Characteristic mass : 0.001 g
Equivalent Weight : 0.000 g/eq.
Density : 0.000 g/cm3
Volume (V) : 0.001 cm³
Cycle Definition : Charge/Discharge alternance
Mode                Single sine
E (V)               0.0000
vs.                 Eoc
tE (h:m:s)          0:00:0.0000
record              0
dI                  0.000
unit dI             mA
dt (s)              0.000
fi                  200.000
unit fi             kHz
ff                  1.000
unit ff             mHz
Nd                  10
Points              per decade
spacing             Logarithmic
Va (mV)             10.0
pw                  3.00
Na                  5
corr                0
E range min (V)     -10.000
E range max (V)     10.000
I Range             Auto
Bandwidth           5
nc cycles           0
goto Ns'            0
nr cycles           0
inc. cycle          0

freq/Hz	Re(Z)/Ohm	-Im(Z)/Ohm	|Z|/Ohm	Phase(Z)/deg	time/s	<Ewe>/V	<I>/mA	Cs/µF	Cp/µF	cycle number	I Range	|Ewe|/V	|I|/A	Ns	(Q-Qo)/mA.h	Re(Y)/Ohm-1	Im(Y)/Ohm-1	|Y|/Ohm-1	Phase(Y)/deg	Re(C)/nF	Im(C)/nF	|C|/nF	Phase(C)/deg	Re(M)	Im(M)	|M|	Phase(M)/deg	Re(Permittivity)	Im(Permittivity)	|Permittivity|	Phase(Permittivity)/deg	Re(Resistivity)/Ohm.cm	Im(Resistivity)/Ohm.cm	|Resistivity|/Ohm.cm	Phase(Resistivity)/deg	Re(Conductivity)/mS/cm	Im(Conductivity)/mS/cm	|Conductivity|/mS/cm	Phase(Conductivity)/deg	Tan(Delta)	Loss Angle(Delta)/deg	dq/mA.h
199998	4.6532	1.91538	5.03199	-22.3734	01/10/2024 22:43:15.5115	-0.00330503	-0.00512776	0.415469	0.0601963	1	10	0.00940487	0.00186902	0	2.88134e-07	0.183769	0.0756441	0.198728	22.3734	60.1963	146.24	158.144	-67.6266	0.0000000E+000	0.0000000E+000	0.0000000E+000	67.6266	0.0000000E+000	0.0000000E+000	0.0000000E+000	-67.6266	0.0000000E+000	0.0000000E+000	0.0000000E+000	-22.3734	0.0000000E+000	0.0000000E+000	0.0000000E+000	22.3734	2.42938	67.6266	2.88134e-07
158857	4.85364	2.25665	5.35259	-24.9356	01/10/2024 22:43:16.6445	-0.0033355	-0.00547416	0.443966	0.078913	1	10	0.0106877	0.00199674	0	-7.67097e-08	0.16941	0.0787654	0.186825	24.9356	78.913	169.727	187.176	-65.0644	0.0000000E+000	0.0000000E+000	0.0000000E+000	65.0644	0.0000000E+000	0.0000000E+000	0.0000000E+000	-65.0644	0.0000000E+000	0.0000000E+000	0.0000000E+000	-24.9356	0.0000000E+000	0.0000000E+000	0.0000000E+000	24.9356	2.15082	65.0644	-3.64843e-07
126188	5.07389	2.65939	5.72859	-27.6605	01/10/2024 22:43:17.7785	-0.00333486	-0.00347213	0.474265	0.102209	1	10	0.0109382	0.0019094	0	-9.12113e-07	0.154613	0.0810377	0.174563	27.6605	102.209	195.006	220.169	-62.3395	0.0000000E+000	0.0000000E+000	0.0000000E+000	62.3395	0.0000000E+000	0.0000000E+000	0.0000000E+000	-62.3395	0.0000000E+000	0.0000000E+000	0.0000000E+000	-27.6605	0.0000000E+000	0.0000000E+000	0.0000000E+000	27.6605	1.90791	62.3395	-8.35403e-07
100226	5.32151	3.12122	6.16932	-30.3929	01/10/2024 22:43:18.9115	-0.00335717	-0.00419473	0.508761	0.130223	1	10	0.0108848	0.00176434	0	3.21621e-06	0.139817	0.0820069	0.162092	30.3929	130.223	222.023	257.395	-59.6071	0.0000000E+000	0.0000000E+000	0.0000000E+000	59.6071	0.0000000E+000	0.0000000E+000	0.0000000E+000	-59.6071	0.0000000E+000	0.0000000E+000	0.0000000E+000	-30.3929	0.0000000E+000	0.0000000E+000	0.0000000E+000	30.3929	1.70494	59.6071	4.12832e-06
79609.6	5.60208	3.66546	6.69469	-33.1969	01/10/2024 22:43:20.0445	-0.00334206	-0.00345538	0.545414	0.163502	1	10	0.0107256	0.00160211	0	6.65441e-06	0.124994	0.0817839	0.149372	33.1969	163.502	249.887	298.624	-56.8031	0.0000000E+000	0.0000000E+000	0.0000000E+000	56.8031	0.0000000E+000	0.0000000E+000	0.0000000E+000	-56.8031	0.0000000E+000	0.0000000E+000	0.0000000E+000	-33.1969	0.0000000E+000	0.0000000E+000	0.0000000E+000	33.1969	1.52834	56.8031	3.4382e-06
63233	5.91712	4.30542	7.31772	-36.0404	01/10/2024 22:43:21.1775	-0.0033386	-0.00248324	0.584603	0.202367	1	10	0.0106056	0.00144931	0	7.75296e-06	0.110499	0.0804015	0.136655	36.0404	202.367	278.122	343.954	-53.9596	0.0000000E+000	0.0000000E+000	0.0000000E+000	53.9596	0.0000000E+000	0.0000000E+000	0.0000000E+000	-53.9596	0.0000000E+000	0.0000000E+000	0.0000000E+000	-36.0404	0.0000000E+000	0.0000000E+000	0.0000000E+000	36.0404	1.37434	53.9596	1.09855e-06
50224.5	6.28272	5.05365	8.063	-38.8123	01/10/2024 22:43:22.3105	-0.00334977	-0.00327846	0.627045	0.246329	1	10	0.0104709	0.00129864	0	7.8406e-06	0.0966395	0.0777342	0.124023	38.8123	246.329	306.238	393.014	-51.1877	0.0000000E+000	0.0000000E+000	0.0000000E+000	51.1877	0.0000000E+000	0.0000000E+000	0.0000000E+000	-51.1877	0.0000000E+000	0.0000000E+000	0.0000000E+000	-38.8123	0.0000000E+000	0.0000000E+000	0.0000000E+000	38.8123	1.2432	51.1877	8.76365e-08
39897.6	6.68921	5.93925	8.9454	-41.6014	01/10/2024 22:43:23.4435	-0.00335145	-0.00425807	0.671649	0.296077	1	10	0.010361	0.00115825	0	5.62073e-06	0.083594	0.0742218	0.111789	41.6014	296.077	333.464	445.937	-48.3986	0.0000000E+000	0.0000000E+000	0.0000000E+000	48.3986	0.0000000E+000	0.0000000E+000	0.0000000E+000	-48.3986	0.0000000E+000	0.0000000E+000	0.0000000E+000	-41.6014	0.0000000E+000	0.0000000E+000	0.0000000E+000	41.6014	1.12627	48.3986	-2.21987e-06
31686.1	7.14427	6.98422	9.99099	-44.351	01/10/2024 22:43:24.5765	-0.00334116	-0.00356714	0.719173	0.351441	1	10	0.0101869	0.00101961	0	5.82388e-06	0.0715716	0.0699682	0.10009	44.351	351.441	359.494	502.739	-45.649	0.0000000E+000	0.0000000E+000	0.0000000E+000	45.649	0.0000000E+000	0.0000000E+000	0.0000000E+000	-45.649	0.0000000E+000	0.0000000E+000	0.0000000E+000	-44.351	0.0000000E+000	0.0000000E+000	0.0000000E+000	44.351	1.02292	45.649	2.0315e-07
25172.6	7.66796	8.25501	11.2669	-47.1114	01/10/2024 22:43:25.5745	-0.00334045	-0.00366398	0.765905	0.411152	1	10	0.0107147	0.000950991	0	5.52177e-06	0.0604048	0.0650294	0.0887556	47.1114	411.152	381.913	561.162	-42.8886	0.0000000E+000	0.0000000E+000	0.0000000E+000	42.8886	0.0000000E+000	0.0000000E+000	0.0000000E+000	-42.8886	0.0000000E+000	0.0000000E+000	0.0000000E+000	-47.1114	0.0000000E+000	0.0000000E+000	0.0000000E+000	47.1114	0.928885	42.8886	-3.0211e-07
19995.2	8.24881	9.8085	12.816	-49.9366	01/10/2024 22:43:26.5715	-0.00333668	-0.00387257	0.811507	0.475328	1	10	0.0106313	0.000829531	0	5.5522e-06	0.0502212	0.0597171	0.0780275	49.9366	475.328	399.744	621.073	-40.0634	0.0000000E+000	0.0000000E+000	0.0000000E+000	40.0634	0.0000000E+000	0.0000000E+000	0.0000000E+000	-40.0634	0.0000000E+000	0.0000000E+000	0.0000000E+000	-49.9366	0.0000000E+000	0.0000000E+000	0.0000000E+000	49.9366	0.840986	40.0634	3.04245e-08
15884.8	8.99489	11.6962	14.7549	-52.4381	01/10/2024 22:43:27.5685	-0.00335121	-0.00352431	0.856633	0.538278	1	10	0.0103338	0.000700365	0	5.67849e-06	0.0413162	0.053724	0.0677739	52.4381	538.278	413.961	679.049	-37.5619	0.0000000E+000	0.0000000E+000	0.0000000E+000	37.5619	0.0000000E+000	0.0000000E+000	0.0000000E+000	-37.5619	0.0000000E+000	0.0000000E+000	0.0000000E+000	-52.4381	0.0000000E+000	0.0000000E+000	0.0000000E+000	52.4381	0.769046	37.5619	1.26289e-07
12618.8	9.91406	14.0038	17.158	-54.7033	01/10/2024 22:43:28.5655	-0.00334575	-0.0042078	0.90065	0.599954	1	10	0.010009	0.000583342	0	5.49621e-06	0.0336759	0.047568	0.0582819	54.7033	599.954	424.739	735.084	-35.2967	0.0000000E+000	0.0000000E+000	0.0000000E+000	35.2967	0.0000000E+000	0.0000000E+000	0.0000000E+000	-35.2967	0.0000000E+000	0.0000000E+000	0.0000000E+000	-54.7033	0.0000000E+000	0.0000000E+000	0.0000000E+000	54.7033	0.707953	35.2967	-1.82272e-07
10020.8	11.0059	16.6111	19.9263	-56.4729	01/10/2024 22:43:29.5635	-0.00334988	-0.00321889	0.956138	0.66445	1	10	0.00970195	0.000486891	0	4.73998e-06	0.0277187	0.0418354	0.0501849	56.4729	664.45	440.241	797.061	-33.5271	0.0000000E+000	0.0000000E+000	0.0000000E+000	33.5271	0.0000000E+000	0.0000000E+000	0.0000000E+000	-33.5271	0.0000000E+000	0.0000000E+000	0.0000000E+000	-56.4729	0.0000000E+000	0.0000000E+000	0.0000000E+000	56.4729	0.662565	33.5271	-7.56231e-07
7959.76	12.6508	20.0506	23.708	-57.7503	01/10/2024 22:43:30.7177	-0.00327586	0.0102329	0.997225	0.713276	1	10	0.00950879	0.000401079	0	7.43785e-06	0.0225076	0.0356728	0.0421799	57.7503	713.276	450.038	843.384	-32.2497	0.0000000E+000	0.0000000E+000	0.0000000E+000	32.2497	0.0000000E+000	0.0000000E+000	0.0000000E+000	-32.2497	0.0000000E+000	0.0000000E+000	0.0000000E+000	-57.7503	0.0000000E+000	0.0000000E+000	0.0000000E+000	57.7503	0.630946	32.2497	2.69787e-06
6323.82	14.6373	24.0476	28.1521	-58.6719	01/10/2024 22:43:32.1303	-0.00323781	0.00719909	1.04657	0.763646	1	10	0.0093742	0.000332985	0	1.05311e-05	0.0184689	0.0303425	0.0355214	58.6719	763.646	464.817	893.986	-31.3281	0.0000000E+000	0.0000000E+000	0.0000000E+000	31.3281	0.0000000E+000	0.0000000E+000	0.0000000E+000	-31.3281	0.0000000E+000	0.0000000E+000	0.0000000E+000	-58.6719	0.0000000E+000	0.0000000E+000	0.0000000E+000	58.6719	0.608682	31.3281	3.09324e-06
5021.61	17.338	28.5034	33.3624	-58.6887	01/10/2024 22:43:33.8327	-0.00315584	0.0107506	1.11194	0.811632	1	10	0.00926703	0.000277769	0	1.56083e-05	0.0155771	0.0256084	0.0299739	58.6887	811.632	493.7	949.993	-31.3113	0.0000000E+000	0.0000000E+000	0.0000000E+000	31.3113	0.0000000E+000	0.0000000E+000	0.0000000E+000	-31.3113	0.0000000E+000	0.0000000E+000	0.0000000E+000	-58.6887	0.0000000E+000	0.0000000E+000	0.0000000E+000	58.6887	0.608281	31.3113	5.07717e-06
3986.17	21.0079	33.6744	39.69	-58.0419	01/10/2024 22:43:35.7899	-0.00323202	0.000389826	1.18567	0.853496	1	11	0.0104958	0.000264444	0	1.78823e-05	0.0133358	0.0213766	0.0251953	58.0419	853.496	532.455	1005.96	-31.9581	0.0000000E+000	0.0000000E+000	0.0000000E+000	31.9581	0.0000000E+000	0.0000000E+000	0.0000000E+000	-31.9581	0.0000000E+000	0.0000000E+000	0.0000000E+000	-58.0419	0.0000000E+000	0.0000000E+000	0.0000000E+000	58.0419	0.623852	31.9581	2.27402e-06
3166.96	25.5613	39.2215	46.8157	-56.907	01/10/2024 22:43:37.4920	-0.00322666	0.000387032	1.28131	0.899331	1	11	0.00998513	0.000213286	0	1.79231e-05	0.0116627	0.0178954	0.0213604	56.907	899.331	586.109	1073.46	-33.093	0.0000000E+000	0.0000000E+000	0.0000000E+000	33.093	0.0000000E+000	0.0000000E+000	0.0000000E+000	-33.093	0.0000000E+000	0.0000000E+000	0.0000000E+000	-56.907	0.0000000E+000	0.0000000E+000	0.0000000E+000	56.907	0.651717	33.093	4.08417e-08
2515.8	31.1928	45.2094	54.9261	-55.3957	01/10/2024 22:43:39.1947	-0.00321405	0.000369147	1.39931	0.948012	1	11	0.00965384	0.00017576	0	1.82251e-05	0.0103394	0.0149855	0.0182063	55.3957	948.012	654.093	1151.77	-34.6043	0.0000000E+000	0.0000000E+000	0.0000000E+000	34.6043	0.0000000E+000	0.0000000E+000	0.0000000E+000	-34.6043	0.0000000E+000	0.0000000E+000	0.0000000E+000	-55.3957	0.0000000E+000	0.0000000E+000	0.0000000E+000	55.3957	0.689963	34.6042	3.0195e-07
1998.08	38.2368	51.2687	63.9573	-53.284	01/10/2024 22:43:40.8980	-0.00322606	0.000312142	1.55366	0.998342	1	11	0.00945987	0.000147909	0	1.84957e-05	0.00934764	0.0125335	0.0156354	53.284	998.342	744.575	1245.42	-36.716	0.0000000E+000	0.0000000E+000	0.0000000E+000	36.716	0.0000000E+000	0.0000000E+000	0.0000000E+000	-36.716	0.0000000E+000	0.0000000E+000	0.0000000E+000	-53.284	0.0000000E+000	0.0000000E+000	0.0000000E+000	53.284	0.745812	36.716	2.7061e-07
1588.47	46.3641	57.2175	73.6442	-50.9817	01/10/2024 22:43:42.6000	-0.00322694	0.000264638	1.7511	1.05704	1	11	0.00931979	0.000126552	0	1.86971e-05	0.00854879	0.01055	0.0135788	50.9817	1057.04	856.534	1360.51	-39.0183	0.0000000E+000	0.0000000E+000	0.0000000E+000	39.0183	0.0000000E+000	0.0000000E+000	0.0000000E+000	-39.0183	0.0000000E+000	0.0000000E+000	0.0000000E+000	-50.9817	0.0000000E+000	0.0000000E+000	0.0000000E+000	50.9817	0.810314	39.0183	2.01392e-07
1260.4	55.7758	62.9856	84.1316	-48.4741	01/10/2024 22:43:44.2997	-0.00322651	0.000311769	2.00479	1.12366	1	11	0.00923843	0.000109809	0	1.88358e-05	0.00788002	0.00889863	0.0118861	48.4741	1123.66	995.034	1500.9	-41.5259	0.0000000E+000	0.0000000E+000	0.0000000E+000	41.5259	0.0000000E+000	0.0000000E+000	0.0000000E+000	-41.5259	0.0000000E+000	0.0000000E+000	0.0000000E+000	-48.4741	0.0000000E+000	0.0000000E+000	0.0000000E+000	48.4741	0.885532	41.5259	1.38743e-07
1001.6	65.9891	68.3259	94.9894	-45.9967	01/10/2024 22:43:45.9974	-0.00322989	0.000397087	2.32562	1.20326	1	11	0.00918101	9.6653e-05	0	1.89777e-05	0.00731344	0.00757242	0.0105275	45.9967	1203.26	1162.11	1672.82	-44.0033	0.0000000E+000	0.0000000E+000	0.0000000E+000	44.0033	0.0000000E+000	0.0000000E+000	0.0000000E+000	-44.0033	0.0000000E+000	0.0000000E+000	0.0000000E+000	-45.9967	0.0000000E+000	0.0000000E+000	0.0000000E+000	45.9967	0.9658	44.0033	1.4187e-07
795.254	77.0664	73.2003	106.29	-43.5262	01/10/2024 22:43:47.6987	-0.00322365	0.000298169	2.73402	1.29671	1	11	0.00914047	8.59957e-05	0	1.92363e-05	0.00682153	0.00647932	0.00940824	43.5262	1296.71	1365.2	1882.88	-46.4738	0.0000000E+000	0.0000000E+000	0.0000000E+000	46.4738	0.0000000E+000	0.0000000E+000	0.0000000E+000	-46.4738	0.0000000E+000	0.0000000E+000	0.0000000E+000	-43.5262	0.0000000E+000	0.0000000E+000	0.0000000E+000	43.5262	1.05282	46.4738	2.58625e-07
631.82	88.6291	77.4877	117.726	-41.1629	01/10/2024 22:43:49.3952	-0.00322615	0.000287178	3.25083	1.40836	1	11	0.00911361	7.74136e-05	0	1.94013e-05	0.00639484	0.00559096	0.00849428	41.1629	1408.36	1610.86	2139.7	-48.8371	0.0000000E+000	0.0000000E+000	0.0000000E+000	48.8371	0.0000000E+000	0.0000000E+000	0.0000000E+000	-48.8371	0.0000000E+000	0.0000000E+000	0.0000000E+000	-41.1629	0.0000000E+000	0.0000000E+000	0.0000000E+000	41.1629	1.14378	48.8371	1.65031e-07
502.089	100.506	81.6407	129.486	-39.0869	01/10/2024 22:43:51.0909	-0.00322972	0.000269667	3.88269	1.54348	1	11	0.00910132	7.02881e-05	0	1.95846e-05	0.0059944	0.00486925	0.00772285	39.0869	1543.48	1900.14	2448.03	-50.9131	0.0000000E+000	0.0000000E+000	0.0000000E+000	50.9131	0.0000000E+000	0.0000000E+000	0.0000000E+000	-50.9131	0.0000000E+000	0.0000000E+000	0.0000000E+000	-39.0869	0.0000000E+000	0.0000000E+000	0.0000000E+000	39.0869	1.23107	50.9131	1.83242e-07
398.597	112.618	85.6161	141.467	-37.2433	01/10/2024 22:43:52.7955	-0.00323979	0.000335798	4.6637	1.70816	1	11	0.00909009	6.42558e-05	0	1.97804e-05	0.00562726	0.00427803	0.00706877	37.2433	1708.16	2246.9	2822.48	-52.7567	0.0000000E+000	0.0000000E+000	0.0000000E+000	52.7567	0.0000000E+000	0.0000000E+000	0.0000000E+000	-52.7567	0.0000000E+000	0.0000000E+000	0.0000000E+000	-37.2433	0.0000000E+000	0.0000000E+000	0.0000000E+000	37.2433	1.31539	52.7567	1.95795e-07
316.723	124.867	89.4804	153.618	-35.6256	01/10/2024 22:43:54.4897	-0.0032343	0.000256999	5.61581	1.90539	1	11	0.00907509	5.90757e-05	0	1.99243e-05	0.00529131	0.00379178	0.00650965	35.6256	1905.39	2658.91	3271.13	-54.3744	0.0000000E+000	0.0000000E+000	0.0000000E+000	54.3744	0.0000000E+000	0.0000000E+000	0.0000000E+000	-54.3744	0.0000000E+000	0.0000000E+000	0.0000000E+000	-35.6256	0.0000000E+000	0.0000000E+000	0.0000000E+000	35.6256	1.39547	54.3744	1.43942e-07
251.691	137.335	93.7105	166.26	-34.3077	01/10/2024 22:43:56.1794	-0.00323465	0.000198692	6.74782	2.14369	1	11	0.00907321	5.45723e-05	0	2.00667e-05	0.00496824	0.00339008	0.00601466	34.3077	2143.69	3141.63	3803.32	-55.6923	0.0000000E+000	0.0000000E+000	0.0000000E+000	55.6923	0.0000000E+000	0.0000000E+000	0.0000000E+000	-55.6923	0.0000000E+000	0.0000000E+000	0.0000000E+000	-34.3077	0.0000000E+000	0.0000000E+000	0.0000000E+000	34.3077	1.46552	55.6923	1.42385e-07
199.808	149.78	98.5035	179.268	-33.3312	01/10/2024 22:43:57.8830	-0.00323695	0.000378644	8.0864	2.44149	1	11	0.00907338	5.06136e-05	0	2.02549e-05	0.00466068	0.00306512	0.00557825	33.3312	2441.49	3712.41	4443.29	-56.6688	0.0000000E+000	0.0000000E+000	0.0000000E+000	56.6688	0.0000000E+000	0.0000000E+000	0.0000000E+000	-56.6688	0.0000000E+000	0.0000000E+000	0.0000000E+000	-33.3312	0.0000000E+000	0.0000000E+000	0.0000000E+000	33.3312	1.52055	56.6688	1.88145e-07
158.629	162.629	103.806	192.935	-32.5501	01/10/2024 22:43:59.5955	-0.0032388	0.000449991	9.66524	2.79793	1	11	0.0090779	4.70515e-05	0	2.04734e-05	0.00436893	0.00278869	0.00518308	32.5501	2797.93	4383.41	5200.26	-57.4499	0.0000000E+000	0.0000000E+000	0.0000000E+000	57.4499	0.0000000E+000	0.0000000E+000	0.0000000E+000	-57.4499	0.0000000E+000	0.0000000E+000	0.0000000E+000	-32.5501	0.0000000E+000	0.0000000E+000	0.0000000E+000	32.5501	1.56666	57.4499	2.18563e-07
126.008	175.916	110.608	207.799	-32.1599	01/10/2024 22:44:01.2842	-0.00323454	0.00016516	11.4192	3.23535	1	11	0.00906276	4.36131e-05	0	2.06618e-05	0.00407397	0.00256153	0.00481234	32.1599	3235.35	5145.64	6078.25	-57.8401	0.0000000E+000	0.0000000E+000	0.0000000E+000	57.8401	0.0000000E+000	0.0000000E+000	0.0000000E+000	-57.8401	0.0000000E+000	0.0000000E+000	0.0000000E+000	-32.1599	0.0000000E+000	0.0000000E+000	0.0000000E+000	32.1599	1.59044	57.8401	1.88413e-07
100.16	190.462	119.298	224.739	-32.0614	01/10/2024 22:44:03.2354	-0.00321476	-6.38227e-05	13.3196	3.75318	1	12	0.009094	4.04647e-05	0	2.06978e-05	0.00377095	0.00236197	0.0044496	32.0614	3753.18	5992.05	7070.43	-57.9386	0.0000000E+000	0.0000000E+000	0.0000000E+000	57.9386	0.0000000E+000	0.0000000E+000	0.0000000E+000	-57.9386	0.0000000E+000	0.0000000E+000	0.0000000E+000	-32.0614	0.0000000E+000	0.0000000E+000	0.0000000E+000	32.0614	1.59652	57.9386	3.59542e-08
79.5165	205.008	128.7	242.058	-32.1197	01/10/2024 22:44:04.9470	-0.00321776	-5.73764e-05	15.5519	4.39645	1	12	0.00908157	3.75182e-05	0	2.06782e-05	0.00349891	0.00219654	0.00413124	32.1197	4396.45	7003.18	8268.81	-57.8803	0.0000000E+000	0.0000000E+000	0.0000000E+000	57.8803	0.0000000E+000	0.0000000E+000	0.0000000E+000	-57.8803	0.0000000E+000	0.0000000E+000	0.0000000E+000	-32.1197	0.0000000E+000	0.0000000E+000	0.0000000E+000	32.1197	1.59292	57.8802	-1.95749e-08
63.1608	220.683	139.784	261.229	-32.3508	01/10/2024 22:44:06.6916	-0.00321115	-4.18756e-05	18.0266	5.16165	1	12	0.00907867	3.47537e-05	0	2.06582e-05	0.0032339	0.0020484	0.00382806	32.3508	5161.65	8148.9	9646.09	-57.6492	0.0000000E+000	0.0000000E+000	0.0000000E+000	57.6492	0.0000000E+000	0.0000000E+000	0.0000000E+000	-57.6492	0.0000000E+000	0.0000000E+000	0.0000000E+000	-32.3508	0.0000000E+000	0.0000000E+000	0.0000000E+000	32.3508	1.57874	57.6492	-2.00534e-08
50.2089	237.637	152.912	282.584	-32.7601	01/10/2024 22:44:08.3879	-0.00321926	-4.6962e-05	20.7299	6.06999	1	12	0.00907042	3.20982e-05	0	2.05782e-05	0.00297591	0.00191491	0.00353877	32.7601	6069.99	9433.21	11217.4	-57.2399	0.0000000E+000	0.0000000E+000	0.0000000E+000	57.2399	0.0000000E+000	0.0000000E+000	0.0000000E+000	-57.2399	0.0000000E+000	0.0000000E+000	0.0000000E+000	-32.7601	0.0000000E+000	0.0000000E+000	0.0000000E+000	32.7601	1.55407	57.2399	-8.0005e-08
39.8597	256.647	167.736	306.599	-33.1673	01/10/2024 22:44:10.0925	-0.00321466	-3.12562e-05	23.8045	7.12476	1	12	0.0090694	2.95806e-05	0	2.0546e-05	0.0027302	0.00178437	0.00326158	33.1673	7124.76	10901.3	13023.1	-56.8327	0.0000000E+000	0.0000000E+000	0.0000000E+000	56.8327	0.0000000E+000	0.0000000E+000	0.0000000E+000	-56.8327	0.0000000E+000	0.0000000E+000	0.0000000E+000	-33.1673	0.0000000E+000	0.0000000E+000	0.0000000E+000	33.1673	1.53007	56.8327	-3.21238e-08
31.6723	277.391	184.808	333.317	-33.6729	01/10/2024 22:44:11.7102	-0.0032176	-6.42517e-05	27.1907	8.35886	1	12	0.00906407	2.71936e-05	0	2.05263e-05	0.00249677	0.00166344	0.00300015	33.6729	8358.86	12546.4	15075.9	-56.3271	0.0000000E+000	0.0000000E+000	0.0000000E+000	56.3271	0.0000000E+000	0.0000000E+000	0.0000000E+000	-56.3271	0.0000000E+000	0.0000000E+000	0.0000000E+000	-33.6729	0.0000000E+000	0.0000000E+000	0.0000000E+000	33.6729	1.50097	56.3271	-1.97291e-08
25.1367	299.911	203.508	362.439	-34.1594	01/10/2024 22:44:13.4047	-0.00320977	-7.61756e-05	31.1121	9.80897	1	12	0.00906161	2.50017e-05	0	2.05137e-05	0.00228308	0.00154922	0.00275909	34.1594	9808.97	14455.5	17469.3	-55.8406	0.0000000E+000	0.0000000E+000	0.0000000E+000	55.8406	0.0000000E+000	0.0000000E+000	0.0000000E+000	-55.8406	0.0000000E+000	0.0000000E+000	0.0000000E+000	-34.1594	0.0000000E+000	0.0000000E+000	0.0000000E+000	34.1594	1.4737	55.8406	-1.25885e-08
19.9808	325.211	225.29	395.624	-34.7123	01/10/2024 22:44:15.1080	-0.00320878	-7.24122e-05	35.3561	11.4653	1	12	0.009061	2.29031e-05	0	2.04868e-05	0.00207779	0.00143939	0.00252765	34.7123	11465.3	16550.4	20133.7	-55.2877	0.0000000E+000	0.0000000E+000	0.0000000E+000	55.2877	0.0000000E+000	0.0000000E+000	0.0000000E+000	-55.2877	0.0000000E+000	0.0000000E+000	0.0000000E+000	-34.7123	0.0000000E+000	0.0000000E+000	0.0000000E+000	34.7123	1.44352	55.2877	-2.69574e-08
15.8576	354.235	250.285	433.734	-35.2431	01/10/2024 22:44:16.7229	-0.00321969	-6.05443e-05	40.1004	13.3528	1	12	0.00906006	2.08885e-05	0	2.03608e-05	0.00188298	0.00133042	0.00230556	35.2431	13352.8	18898.5	23139.8	-54.7569	0.0000000E+000	0.0000000E+000	0.0000000E+000	54.7569	0.0000000E+000	0.0000000E+000	0.0000000E+000	-54.7569	0.0000000E+000	0.0000000E+000	0.0000000E+000	-35.2431	0.0000000E+000	0.0000000E+000	0.0000000E+000	35.2431	1.41533	54.7569	-1.26001e-07
12.6008	384.977	276.922	474.229	-35.7282	01/10/2024 22:44:18.7269	-0.00321861	-2.0674e-05	45.6105	15.5526	1	12	0.00906064	1.9106e-05	0	2.04155e-05	0.00171182	0.00123135	0.00210869	35.7282	15552.6	21621.2	26633.8	-54.2718	0.0000000E+000	0.0000000E+000	0.0000000E+000	54.2718	0.0000000E+000	0.0000000E+000	0.0000000E+000	-54.2718	0.0000000E+000	0.0000000E+000	0.0000000E+000	-35.7282	0.0000000E+000	0.0000000E+000	0.0000000E+000	35.7282	1.3902	54.2718	5.47732e-08
10.016	419.119	307.178	519.634	-36.2381	01/10/2024 22:44:20.4244	-0.00322025	-4.78753e-05	51.7291	18.0767	1	12	0.00905799	1.74315e-05	0	2.03949e-05	0.00155218	0.00113761	0.00192443	36.2381	18076.7	24664.2	30579.3	-53.7619	0.0000000E+000	0.0000000E+000	0.0000000E+000	53.7619	0.0000000E+000	0.0000000E+000	0.0000000E+000	-53.7619	0.0000000E+000	0.0000000E+000	0.0000000E+000	-36.2381	0.0000000E+000	0.0000000E+000	0.0000000E+000	36.2381	1.36442	53.7619	-2.05777e-08
7.9557	457.719	342.471	571.658	-36.8043	01/10/2024 22:44:22.5332	-0.00321418	-4.82759e-05	58.4141	20.9649	1	12	0.00905907	1.5847e-05	0	2.02653e-05	0.00140064	0.00104798	0.0017493	36.8043	20964.9	28020	34994.9	-53.1957	0.0000000E+000	0.0000000E+000	0.0000000E+000	53.1957	0.0000000E+000	0.0000000E+000	0.0000000E+000	-53.1957	0.0000000E+000	0.0000000E+000	0.0000000E+000	-36.8043	0.0000000E+000	0.0000000E+000	0.0000000E+000	36.8043	1.33652	53.1957	-1.29631e-07
6.32079	500.76	378.95	627.984	-37.1166	01/10/2024 22:44:23.9049	-0.00323387	-0.000163779	66.4457	24.1954	1	12	0.00905162	1.44138e-05	0	2.0204e-05	0.00126979	0.000960915	0.0015924	37.1166	24195.4	31972.9	40095.9	-52.8834	0.0000000E+000	0.0000000E+000	0.0000000E+000	52.8834	0.0000000E+000	0.0000000E+000	0.0000000E+000	-52.8834	0.0000000E+000	0.0000000E+000	0.0000000E+000	-37.1166	0.0000000E+000	0.0000000E+000	0.0000000E+000	37.1166	1.32144	52.8834	-6.13187e-08
5.01444	547.403	421.651	690.97	-37.6062	01/10/2024 22:44:25.6032	-0.00321513	-6.66368e-05	75.2739	28.0306	1	12	0.00905293	1.31018e-05	0	2.03246e-05	0.00114654	0.000883151	0.00144724	37.6062	28030.6	36390.4	45934.4	-52.3938	0.0000000E+000	0.0000000E+000	0.0000000E+000	52.3938	0.0000000E+000	0.0000000E+000	0.0000000E+000	-52.3938	0.0000000E+000	0.0000000E+000	0.0000000E+000	-37.6062	0.0000000E+000	0.0000000E+000	0.0000000E+000	37.6062	1.29824	52.3938	1.20591e-07
3.98597	600.004	470.28	762.344	-38.0892	01/10/2024 22:44:27.7076	-0.00321479	-1.88856e-05	84.9043	32.3103	1	12	0.00905741	1.1881e-05	0	2.02268e-05	0.00103241	0.000809199	0.00131174	38.0892	32310.3	41222.9	52376.4	-51.9108	0.0000000E+000	0.0000000E+000	0.0000000E+000	51.9108	0.0000000E+000	0.0000000E+000	0.0000000E+000	-51.9108	0.0000000E+000	0.0000000E+000	0.0000000E+000	-38.0892	0.0000000E+000	0.0000000E+000	0.0000000E+000	38.0892	1.27584	51.9108	-9.77657e-08
3.16552	658.642	524.783	842.144	-38.5466	01/10/2024 22:44:30.6968	-0.00321441	-1.11382e-05	95.8066	37.2034	1	13	0.00906154	1.07601e-05	0	2.02592e-05	0.000928703	0.000739958	0.00118745	38.5466	37203.4	46693	59702	-51.4534	0.0000000E+000	0.0000000E+000	0.0000000E+000	51.4534	0.0000000E+000	0.0000000E+000	0.0000000E+000	-51.4534	0.0000000E+000	0.0000000E+000	0.0000000E+000	-38.5466	0.0000000E+000	0.0000000E+000	0.0000000E+000	38.5466	1.25508	51.4534	3.23364e-08
2.51367	722.905	585.214	930.09	-38.9913	01/10/2024 22:44:33.9697	-0.00320809	-9.93584e-07	108.192	42.8328	1	13	0.00906092	9.74199e-06	0	2.04145e-05	0.000835664	0.000676496	0.00107517	38.9913	42832.8	52910.6	68074.8	-51.0087	0.0000000E+000	0.0000000E+000	0.0000000E+000	51.0087	0.0000000E+000	0.0000000E+000	0.0000000E+000	-51.0087	0.0000000E+000	0.0000000E+000	0.0000000E+000	-38.9913	0.0000000E+000	0.0000000E+000	0.0000000E+000	38.9913	1.23528	51.0087	1.55335e-07
1.99706	794.346	653.206	1028.43	-39.4311	01/10/2024 22:44:38.0657	-0.00320346	4.98647e-07	122.005	49.2188	1	13	0.00906038	8.80993e-06	0	2.0354e-05	0.000751038	0.000617593	0.000972358	39.4311	49218.9	59853.7	77491.7	-50.5689	0.0000000E+000	0.0000000E+000	0.0000000E+000	50.5689	0.0000000E+000	0.0000000E+000	0.0000000E+000	-50.5689	0.0000000E+000	0.0000000E+000	0.0000000E+000	-39.4311	0.0000000E+000	0.0000000E+000	0.0000000E+000	39.4311	1.21607	50.5689	-6.05301e-08
1.58791	872.691	730.261	1137.92	-39.9223	01/10/2024 22:44:43.1898	-0.00318844	3.24911e-06	137.251	56.5258	1	13	0.00906248	7.96404e-06	0	2.02061e-05	0.00067396	0.000563964	0.000878793	39.9223	56525.8	67550.6	88080.9	-50.0777	0.0000000E+000	0.0000000E+000	0.0000000E+000	50.0777	0.0000000E+000	0.0000000E+000	0.0000000E+000	-50.0777	0.0000000E+000	0.0000000E+000	0.0000000E+000	-39.9223	0.0000000E+000	0.0000000E+000	0.0000000E+000	39.9223	1.19504	50.0777	-1.47908e-07
1.25967	961.173	817.391	1261.74	-40.3782	01/10/2024 22:44:49.6270	-0.00319346	4.12529e-06	154.572	64.8715	1	13	0.00906053	7.181e-06	0	2.00917e-05	0.000603759	0.000513443	0.000792558	40.3782	64871.5	76282.6	100137	-49.6218	0.0000000E+000	0.0000000E+000	0.0000000E+000	49.6218	0.0000000E+000	0.0000000E+000	0.0000000E+000	-49.6218	0.0000000E+000	0.0000000E+000	0.0000000E+000	-40.3782	0.0000000E+000	0.0000000E+000	0.0000000E+000	40.3782	1.1759	49.6218	-1.1431e-07
1.00006	1059.3	916.079	1400.47	-40.8531	01/10/2024 22:44:57.7133	-0.00320054	4.26574e-06	173.724	74.3321	1	13	0.00906034	6.46949e-06	0	2.00474e-05	0.000540096	0.000467072	0.000714045	40.8531	74332.1	85953.5	113636	-49.1469	0.0000000E+000	0.0000000E+000	0.0000000E+000	49.1469	0.0000000E+000	0.0000000E+000	0.0000000E+000	-49.1469	0.0000000E+000	0.0000000E+000	0.0000000E+000	-40.8531	0.0000000E+000	0.0000000E+000	0.0000000E+000	40.8531	1.15634	49.1469	-4.43085e-08
0.794438	1168.71	1027.55	1556.19	-41.3225	01/10/2024 22:45:07.8671	-0.00319879	1.93784e-06	194.966	85.0033	1	13	0.00906147	5.82284e-06	0	2.00612e-05	0.000482591	0.000424302	0.000642594	41.3225	85003.3	96680.7	128735	-48.6775	0.0000000E+000	0.0000000E+000	0.0000000E+000	48.6775	0.0000000E+000	0.0000000E+000	0.0000000E+000	-48.6775	0.0000000E+000	0.0000000E+000	0.0000000E+000	-41.3225	0.0000000E+000	0.0000000E+000	0.0000000E+000	41.3225	1.13738	48.6775	1.37716e-08
0.631262	1290.7	1153.2	1730.83	-41.7799	01/10/2024 22:45:20.6279	-0.00319838	5.32787e-06	218.627	97.0524	1	13	0.00906157	5.23538e-06	0	2.01021e-05	0.000430838	0.000384943	0.000577757	41.7799	97052.4	108624	145665	-48.2201	0.0000000E+000	0.0000000E+000	0.0000000E+000	48.2201	0.0000000E+000	0.0000000E+000	0.0000000E+000	-48.2201	0.0000000E+000	0.0000000E+000	0.0000000E+000	-41.7799	0.0000000E+000	0.0000000E+000	0.0000000E+000	41.7799	1.11923	48.2201	4.08894e-08
0.501187	1428.24	1297.32	1929.48	-42.25	01/10/2024 22:45:38.7222	-0.00319658	3.16293e-06	244.778	110.659	1	14	0.00906452	4.6979e-06	0	2.0207e-05	0.000383635	0.00034847	0.000518273	42.25	110659	121826	164581	-47.75	0.0000000E+000	0.0000000E+000	0.0000000E+000	47.75	0.0000000E+000	0.0000000E+000	0.0000000E+000	-47.75	0.0000000E+000	0.0000000E+000	0.0000000E+000	-42.25	0.0000000E+000	0.0000000E+000	0.0000000E+000	42.25	1.10091	47.75	1.04861e-07
0.398678	1581.21	1460.17	2152.28	-42.7209	01/10/2024 22:45:58.8787	-0.00320799	-1.44657e-06	273.398	125.835	1	14	0.00906266	4.21073e-06	0	2.02977e-05	0.000341344	0.000315214	0.000464624	42.7209	125835	136267	185481	-47.2791	0.0000000E+000	0.0000000E+000	0.0000000E+000	47.2791	0.0000000E+000	0.0000000E+000	0.0000000E+000	-47.2791	0.0000000E+000	0.0000000E+000	0.0000000E+000	-42.7209	0.0000000E+000	0.0000000E+000	0.0000000E+000	42.7209	1.0829	47.2791	9.073e-08
0.316193	1755.25	1645.24	2405.77	-43.147	01/10/2024 22:46:24.2695	-0.0032012	1.38423e-06	305.942	143.083	1	14	0.0090617	3.76666e-06	0	2.03984e-05	0.000303272	0.000284264	0.000415668	43.147	143084	152651	209225	-46.853	0.0000000E+000	0.0000000E+000	0.0000000E+000	46.853	0.0000000E+000	0.0000000E+000	0.0000000E+000	-46.853	0.0000000E+000	0.0000000E+000	0.0000000E+000	-43.147	0.0000000E+000	0.0000000E+000	0.0000000E+000	43.147	1.06687	46.853	1.00693e-07
0.251173	1949.96	1854.93	2691.3	-43.5693	01/10/2024 22:46:56.2151	-0.00320815	6.95234e-07	341.601	162.274	1	14	0.00906227	3.36724e-06	0	2.04981e-05	0.000269216	0.000256096	0.000371567	43.5693	162274	170587	235442	-46.4307	0.0000000E+000	0.0000000E+000	0.0000000E+000	46.4307	0.0000000E+000	0.0000000E+000	0.0000000E+000	-46.4307	0.0000000E+000	0.0000000E+000	0.0000000E+000	-43.5693	0.0000000E+000	0.0000000E+000	0.0000000E+000	43.5693	1.05123	46.4307	9.96762e-08
0.199808	2167.58	2089.4	3010.65	-43.9478	01/10/2024 22:47:36.3535	-0.00320862	6.11569e-07	381.229	183.615	1	14	0.00905971	3.00922e-06	0	2.06016e-05	0.000239142	0.000230516	0.000332155	43.9478	183615	190486	264574	-46.0522	0.0000000E+000	0.0000000E+000	0.0000000E+000	46.0522	0.0000000E+000	0.0000000E+000	0.0000000E+000	-46.0522	0.0000000E+000	0.0000000E+000	0.0000000E+000	-43.9478	0.0000000E+000	0.0000000E+000	0.0000000E+000	43.9478	1.03742	46.0522	1.03534e-07
0.158469	2414.76	2358.91	3375.73	-44.3297	01/10/2024 22:48:26.9427	-0.00321046	7.92337e-07	425.76	207.9	1	14	0.00906049	2.68401e-06	0	2.07114e-05	0.000211904	0.000207003	0.000296232	44.3297	207900	212822	297516	-45.6703	0.0000000E+000	0.0000000E+000	0.0000000E+000	45.6703	0.0000000E+000	0.0000000E+000	0.0000000E+000	-45.6703	0.0000000E+000	0.0000000E+000	0.0000000E+000	-44.3297	0.0000000E+000	0.0000000E+000	0.0000000E+000	44.3297	1.02368	45.6703	1.09802e-07
0.125907	2690.56	2661.33	3784.41	-44.6871	01/10/2024 22:49:30.5971	-0.00320686	1.42031e-06	474.978	234.895	1	14	0.00905808	2.39352e-06	0	2.08381e-05	0.000187865	0.000185824	0.000264242	44.6871	234895	237475	334021	-45.3129	0.0000000E+000	0.0000000E+000	0.0000000E+000	45.3129	0.0000000E+000	0.0000000E+000	0.0000000E+000	-45.3129	0.0000000E+000	0.0000000E+000	0.0000000E+000	-44.6871	0.0000000E+000	0.0000000E+000	0.0000000E+000	44.6871	1.01098	45.3129	1.26679e-07
0.10014	2998.04	3002.73	4243.18	-45.0448	01/10/2024 22:50:50.6124	-0.00321368	7.88693e-07	529.295	265.061	1	14	0.009059	2.13496e-06	0	2.09685e-05	0.000166515	0.000166776	0.000235672	45.0448	265061	264647	374560	-44.9552	0.0000000E+000	0.0000000E+000	0.0000000E+000	44.9552	0.0000000E+000	0.0000000E+000	0.0000000E+000	-44.9552	0.0000000E+000	0.0000000E+000	0.0000000E+000	-45.0448	0.0000000E+000	0.0000000E+000	0.0000000E+000	45.0448	0.998437	44.9552	1.30464e-07
0.0794212	3345.81	3395.16	4766.71	-45.4195	01/10/2024 22:52:31.4829	-0.00321304	8.24357e-07	590.233	299.438	1	14	0.00906052	1.90079e-06	0	2.11118e-05	0.000147253	0.000149425	0.000209788	45.4195	299438	295085	420402	-44.5805	0.0000000E+000	0.0000000E+000	0.0000000E+000	44.5805	0.0000000E+000	0.0000000E+000	0.0000000E+000	-44.5805	0.0000000E+000	0.0000000E+000	0.0000000E+000	-45.4195	0.0000000E+000	0.0000000E+000	0.0000000E+000	45.4195	0.985463	44.5805	1.43227e-07
0.0631017	3736.52	3833.66	5353.37	-45.7351	01/10/2024 22:54:38.4214	-0.00320901	2.49459e-06	657.909	337.395	1	14	0.00905691	1.69182e-06	0	2.12573e-05	0.000130381	0.00013377	0.000186798	45.7351	337394	328846	471142	-44.2649	0.0000000E+000	0.0000000E+000	0.0000000E+000	44.2649	0.0000000E+000	0.0000000E+000	0.0000000E+000	-44.2649	0.0000000E+000	0.0000000E+000	0.0000000E+000	-45.7351	0.0000000E+000	0.0000000E+000	0.0000000E+000	45.7351	0.974663	44.2649	1.45513e-07
0.0501541	4166.54	4330.14	6009.17	-46.1031	01/10/2024 22:57:18.1133	-0.00322017	1.57382e-06	732.845	380.528	1	14	0.00905855	1.50745e-06	0	2.14785e-05	0.000115384	0.000119915	0.000166412	46.1031	380528	366151	528079	-43.8969	0.0000000E+000	0.0000000E+000	0.0000000E+000	43.8969	0.0000000E+000	0.0000000E+000	0.0000000E+000	-43.8969	0.0000000E+000	0.0000000E+000	0.0000000E+000	-46.1031	0.0000000E+000	0.0000000E+000	0.0000000E+000	46.1031	0.962218	43.8969	2.21252e-07
0.0398045	4641.25	4888.51	6740.82	-46.4863	01/10/2024 23:00:39.3087	-0.00321082	1.31407e-06	817.923	430.169	1	14	0.00905964	1.344e-06	0	2.17224e-05	0.000102143	0.000107585	0.00014835	46.4863	430169	408411	593165	-43.5137	0.0000000E+000	0.0000000E+000	0.0000000E+000	43.5137	0.0000000E+000	0.0000000E+000	0.0000000E+000	-43.5137	0.0000000E+000	0.0000000E+000	0.0000000E+000	-46.4863	0.0000000E+000	0.0000000E+000	0.0000000E+000	46.4863	0.94942	43.5137	2.43879e-07
0.0316672	5140.39	5511.31	7536.46	-46.9944	01/10/2024 23:04:52.1853	-0.00321697	1.34149e-06	911.916	487.675	1	14	0.00905824	1.20192e-06	0	2.19887e-05	9.05028e-05	9.70333e-05	0.000132688	46.9944	487675	454854	666872	-43.0056	0.0000000E+000	0.0000000E+000	0.0000000E+000	43.0056	0.0000000E+000	0.0000000E+000	0.0000000E+000	-43.0056	0.0000000E+000	0.0000000E+000	0.0000000E+000	-46.9944	0.0000000E+000	0.0000000E+000	0.0000000E+000	46.9944	0.932698	43.0056	2.66328e-07
0.025145	5661.81	6234	8421.33	-47.7538	01/10/2024 23:10:10.6364	-0.0032222	1.20414e-06	1015.32	556.383	1	14	0.00905951	1.07578e-06	0	2.22945e-05	7.98351e-05	8.79033e-05	0.000118746	47.7538	556383	505315	751602	-42.2462	0.0000000E+000	0.0000000E+000	0.0000000E+000	42.2462	0.0000000E+000	0.0000000E+000	0.0000000E+000	-42.2462	0.0000000E+000	0.0000000E+000	0.0000000E+000	-47.7538	0.0000000E+000	0.0000000E+000	0.0000000E+000	47.7538	0.908215	42.2462	3.05751e-07
0.0199494	6196.1	7101.23	9424.39	-48.894	01/10/2024 23:16:52.0066	-0.00322274	1.00791e-06	1123.46	637.849	1	14	0.00905771	9.61092e-07	0	2.26342e-05	6.97609e-05	7.99516e-05	0.000106108	48.894	637849	556548	846520	-41.106	0.0000000E+000	0.0000000E+000	0.0000000E+000	41.106	0.0000000E+000	0.0000000E+000	0.0000000E+000	-41.106	0.0000000E+000	0.0000000E+000	0.0000000E+000	-48.894	0.0000000E+000	0.0000000E+000	0.0000000E+000	48.894	0.872539	41.106	3.39732e-07
0.0158607	6731.16	8151.37	10571.3	-50.4511	01/10/2024 23:25:16.8271	-0.00320994	9.06963e-07	1231.03	731.927	1	14	0.0090604	8.57072e-07	0	2.30358e-05	6.02323e-05	7.29407e-05	9.45953e-05	50.4511	731928	604404	949222	-39.5489	0.0000000E+000	0.0000000E+000	0.0000000E+000	39.5489	0.0000000E+000	0.0000000E+000	0.0000000E+000	-39.5489	0.0000000E+000	0.0000000E+000	0.0000000E+000	-50.4511	0.0000000E+000	0.0000000E+000	0.0000000E+000	50.4511	0.825771	39.5489	4.01546e-07
0.0126067	7273.62	9450.98	11925.9	-52.4175	01/10/2024 23:35:51.9327	-0.00322243	7.88304e-07	1335.81	838.911	1	14	0.00905978	7.59674e-07	0	2.34475e-05	5.11411e-05	6.64501e-05	8.38513e-05	52.4175	838911	645639	1.05859e+06	-37.5825	0.0000000E+000	0.0000000E+000	0.0000000E+000	37.5825	0.0000000E+000	0.0000000E+000	0.0000000E+000	-37.5825	0.0000000E+000	0.0000000E+000	0.0000000E+000	-52.4175	0.0000000E+000	0.0000000E+000	0.0000000E+000	52.4175	0.769616	37.5825	4.1175e-07
0.0100092	7865.06	11103.2	13606.7	-54.6879	01/10/2024 23:49:11.8386	-0.00321527	1.09508e-06	1432.1	953.606	1	14	0.00906065	6.65898e-07	0	2.38707e-05	4.24815e-05	5.99718e-05	7.34934e-05	54.6879	953606	675494	1.16861e+06	-35.3121	0.0000000E+000	0.0000000E+000	0.0000000E+000	35.3121	0.0000000E+000	0.0000000E+000	0.0000000E+000	-35.3121	0.0000000E+000	0.0000000E+000	0.0000000E+000	-54.6879	0.0000000E+000	0.0000000E+000	0.0000000E+000	54.6879	0.708358	35.3121	4.2314e-07
0.00795073	8517	13153.3	15670	-57.0761	01/11/2024 00:05:58.8217	-0.00322413	7.62525e-07	1521.88	1072.29	1	14	0.00905963	5.78153e-07	0	2.43102e-05	3.46857e-05	5.3567e-05	6.38164e-05	57.0761	1.07229e+06	694327	1.27745e+06	-32.9239	0.0000000E+000	0.0000000E+000	0.0000000E+000	32.9239	0.0000000E+000	0.0000000E+000	0.0000000E+000	-32.9239	0.0000000E+000	0.0000000E+000	0.0000000E+000	-57.0761	0.0000000E+000	0.0000000E+000	0.0000000E+000	57.0761	0.64752	32.9239	4.39574e-07
0.00631191	9310.42	15713.7	18264.8	-59.353	01/11/2024 00:27:07.2399	-0.00322088	1.34108e-06	1604.66	1187.7	1	14	0.00905457	4.95739e-07	0	2.4919e-05	2.79087e-05	4.71029e-05	5.47501e-05	59.353	1.1877e+06	703719	1.38053e+06	-30.647	0.0000000E+000	0.0000000E+000	0.0000000E+000	30.647	0.0000000E+000	0.0000000E+000	0.0000000E+000	-30.647	0.0000000E+000	0.0000000E+000	0.0000000E+000	-59.353	0.0000000E+000	0.0000000E+000	0.0000000E+000	59.353	0.592505	30.647	6.08749e-07
0.00501541	10257	18874.1	21481.1	-61.4785	01/11/2024 00:53:43.5306	-0.00322578	1.13347e-06	1681.31	1297.98	1	14	0.00905624	4.2159e-07	0	2.54719e-05	2.22283e-05	4.09027e-05	4.65525e-05	61.4785	1.29798e+06	705375	1.47726e+06	-28.5215	0.0000000E+000	0.0000000E+000	0.0000000E+000	28.5215	0.0000000E+000	0.0000000E+000	0.0000000E+000	-28.5215	0.0000000E+000	0.0000000E+000	0.0000000E+000	-61.4785	0.0000000E+000	0.0000000E+000	0.0000000E+000	61.4785	0.543442	28.5215	5.5292e-07
0.0039839	11432	22753.7	25464.1	-63.324	01/11/2024 01:27:13.1132	-0.00322425	9.85283e-07	1755.73	1401.87	1	14	0.00905886	3.5575e-07	0	2.60544e-05	1.76304e-05	3.50909e-05	3.92709e-05	63.324	1.40186e+06	704328	1.56885e+06	-26.676	0.0000000E+000	0.0000000E+000	0.0000000E+000	26.676	0.0000000E+000	0.0000000E+000	0.0000000E+000	-26.676	0.0000000E+000	0.0000000E+000	0.0000000E+000	-63.324	0.0000000E+000	0.0000000E+000	0.0000000E+000	63.324	0.502422	26.676	5.82534e-07
0.00316349	12926.7	27467	30356.8	-64.797	01/11/2024 02:09:23.8403	-0.00322211	1.08075e-06	1831.65	1499.52	1	14	0.00905934	2.98429e-07	0	2.67566e-05	1.40274e-05	2.98056e-05	3.29415e-05	64.797	1.49952e+06	705717	1.65729e+06	-25.203	0.0000000E+000	0.0000000E+000	0.0000000E+000	25.203	0.0000000E+000	0.0000000E+000	0.0000000E+000	-25.203	0.0000000E+000	0.0000000E+000	0.0000000E+000	-64.797	0.0000000E+000	0.0000000E+000	0.0000000E+000	64.797	0.470628	25.203	7.02127e-07
0.00251314	14812.8	33153.4	36312.1	-65.9251	01/11/2024 03:02:29.4496	-0.00322279	9.49109e-07	1910.19	1592.32	1	14	0.00905996	2.49503e-07	0	2.75837e-05	1.1234e-05	2.51435e-05	2.7539e-05	65.9251	1.59232e+06	711440	1.74402e+06	-24.0749	0.0000000E+000	0.0000000E+000	0.0000000E+000	24.0749	0.0000000E+000	0.0000000E+000	0.0000000E+000	-24.0749	0.0000000E+000	0.0000000E+000	0.0000000E+000	-65.9251	0.0000000E+000	0.0000000E+000	0.0000000E+000	65.9251	0.446795	24.0749	8.27092e-07
0.00199581	17217	39988.1	43537	-66.7055	01/11/2024 04:09:21.1497	-0.00322796	1.08192e-06	1994.21	1682.34	1	14	0.00905936	2.08084e-07	0	2.87661e-05	9.08323e-06	2.10966e-05	2.29689e-05	66.7055	1.68234e+06	724339	1.83165e+06	-23.2945	0.0000000E+000	0.0000000E+000	0.0000000E+000	23.2945	0.0000000E+000	0.0000000E+000	0.0000000E+000	-23.2945	0.0000000E+000	0.0000000E+000	0.0000000E+000	-66.7055	0.0000000E+000	0.0000000E+000	0.0000000E+000	66.7055	0.430554	23.2945	1.18241e-06
0.00158526	20237.5	48114.8	52197.6	-67.188	01/11/2024 05:33:33.5254	-0.0032256	1.1417e-06	2086.61	1772.96	1	14	0.00905672	1.73508e-07	0	3.04122e-05	7.42772e-06	1.76595e-05	1.9158e-05	67.188	1.77296e+06	745721	1.9234e+06	-22.812	0.0000000E+000	0.0000000E+000	0.0000000E+000	22.812	0.0000000E+000	0.0000000E+000	0.0000000E+000	-22.812	0.0000000E+000	0.0000000E+000	0.0000000E+000	-67.188	0.0000000E+000	0.0000000E+000	0.0000000E+000	67.188	0.420609	22.812	1.64618e-06
0.00125913	24015.5	57774.8	62567.3	-67.4286	01/11/2024 07:19:35.1379	-0.00321754	8.61951e-07	2187.82	1865.49	1	14	0.00905727	1.4476e-07	0	3.19187e-05	6.13475e-06	1.47585e-05	1.59828e-05	67.4286	1.86549e+06	775439	2.02024e+06	-22.5714	0.0000000E+000	0.0000000E+000	0.0000000E+000	22.5714	0.0000000E+000	0.0000000E+000	0.0000000E+000	-22.5714	0.0000000E+000	0.0000000E+000	0.0000000E+000	-67.4286	0.0000000E+000	0.0000000E+000	0.0000000E+000	67.4286	0.415675	22.5714	1.50648e-06
0.00100016	28657.4	69129.6	74834.2	-67.4838	01/11/2024 09:33:01.6881	-0.00323224	9.52589e-07	2301.89	1964.33	1	14	0.00905872	1.21051e-07	0	3.4058e-05	5.11725e-06	1.23442e-05	1.33629e-05	67.4838	1.96433e+06	814304	2.12642e+06	-22.5162	0.0000000E+000	0.0000000E+000	0.0000000E+000	22.5162	0.0000000E+000	0.0000000E+000	0.0000000E+000	-22.5162	0.0000000E+000	0.0000000E+000	0.0000000E+000	-67.4838	0.0000000E+000	0.0000000E+000	0.0000000E+000	67.4838	0.414546	22.5162	2.13931e-06